# SrXplanar configration #
[Control]
summation = False

[Experiment]
fit2dconfig = fit2d.txt
tifdirectory = /home/xyang/workspace/13SrSig2D/diffpy.srxplanar/trunk/doc/examples
savedirectory = /home/xyang/workspace/13SrSig2D/diffpy.srxplanar/trunk/doc/examples
backgroundfile = 
addmask = edgemask
integrationspace = twotheta
wavelength = 0.1078
xbeamcenter = 1299.43
ybeamcenter = 1010.19
distance = 369.579
rotationd = 49.715
tiltd = -1.48
tthstepd = 0.02
qstep = 0.02

[Beamline]
xdimension = 2048
ydimension = 2048
xpixelsize = 0.2
ypixelsize = 0.2

[Others]
uncertaintyenable = False
gsasoutput = None
filenameplus = 

0 1528.51
0.02 1483.51
0.04 1610.36
0.06 1595.92
0.08 1601.14
0.1 1593.33
0.12 1618.09
0.14 1620.02
0.16 1662.8
0.18 1716.98
0.2 1750.17
0.22 1861.59
0.24 2285.81
0.26 2916.53
0.28 4063.88
0.3 5036
0.32 6165.47
0.34 7875.18
0.36 8901.3
0.38 9953.56
0.4 11070.5
0.42 11349.5
0.44 11275.8
0.46 11134.6
0.48 10833
0.5 10681.5
0.52 10727.5
0.54 10695.6
0.56 10749.6
0.58 10760.5
0.6 10763
0.62 10859.5
0.64 10824.6
0.66 10810.1
0.68 10910
0.7 10920.9
0.72 10816.8
0.74 11049.1
0.76 11259
0.78 11973.5
0.8 14441
0.82 21476
0.84 36768.9
0.86 59604.1
0.88 74789.2
0.9 76143.9
0.92 66529.2
0.94 45805.6
0.96 24953.7
0.98 15752.2
1 11354.2
1.02 9901.23
1.04 9394.77
1.06 9089.49
1.08 8918.29
1.1 8671.92
1.12 8555.55
1.14 8416.36
1.16 8313.86
1.18 8199.44
1.2 8065.88
1.22 8019.02
1.24 8020.84
1.26 7822.11
1.28 7725.93
1.3 7688.8
1.32 7492.07
1.34 7429.93
1.36 7358.38
1.38 7318.04
1.4 7206.5
1.42 7084.26
1.44 7040.84
1.46 6977.8
1.48 6893.72
1.5 6870.08
1.52 6833.18
1.54 6820.29
1.56 7010.43
1.58 7444.91
1.6 8746.03
1.62 11573.4
1.64 15483.5
1.66 17743.9
1.68 18598.6
1.7 16462.4
1.72 13007.2
1.74 10119.4
1.76 8430.08
1.78 7838.26
1.8 7610.49
1.82 7482.23
1.84 7257.68
1.86 7130.82
1.88 7164.1
1.9 7311.71
1.92 7515.9
1.94 7860.63
1.96 8360.41
1.98 9538.21
2 12278.9
2.02 20167.8
2.04 40124.1
2.06 66504.2
2.08 89756.5
2.1 97908.2
2.12 88119.3
2.14 63007.3
2.16 36735.7
2.18 19817.3
2.2 12499
2.22 11081.8
2.24 11835.3
2.26 13018.6
2.28 13326.9
2.3 12908
2.32 11257.6
2.34 9945.16
2.36 9912.85
2.38 12638.3
2.4 17812.6
2.42 24619.2
2.44 28700
2.46 28347.3
2.48 24366.8
2.5 17545.4
2.52 12156.5
2.54 9181.69
2.56 8279.7
2.58 7899.52
2.6 7669.05
2.62 7337.46
2.64 7261.7
2.66 7630.24
2.68 8485.13
2.7 9622.92
2.72 11251.1
2.74 11831.8
2.76 11643.9
2.78 11233.9
2.8 11289.9
2.82 14219.1
2.84 22865.5
2.86 35438.4
2.88 48272.8
2.9 53395.7
2.92 48105.1
2.94 35398.9
2.96 23469.3
2.98 15031
3 11729.6
3.02 11731.1
3.04 12924.4
3.06 13027.3
3.08 11016.1
3.1 9795.87
3.12 9987.69
3.14 12243.1
3.16 18326.1
3.18 27754.1
3.2 37539.2
3.22 44592.7
3.24 41914.6
3.26 36349.7
3.28 26225.9
3.3 20470.9
3.32 18387.2
3.34 18127.3
3.36 17080.5
3.38 15361.5
3.4 12875.3
3.42 12081.5
3.44 14470.7
3.46 22276.7
3.48 35737.7
3.5 49663.2
3.52 59250.1
3.54 57980.1
3.56 47179.2
3.58 35267.6
3.6 24036.2
3.62 17493.1
3.64 13642.8
3.66 11089.1
3.68 9169.82
3.7 8047.11
3.72 7460.03
3.74 7731.87
3.76 9487.95
3.78 14016.3
3.8 21211.7
3.82 29504.4
3.84 34969.3
3.86 33518.7
3.88 28267.6
3.9 20081
3.92 13322.3
3.94 8970.07
3.96 6888.94
3.98 5936.55
4 5476.53
4.02 5232.5
4.04 5079
4.06 4979.52
4.08 4910.2
4.1 4883.54
4.12 4915.72
4.14 5068.68
4.16 5334.16
4.18 5768.33
4.2 6368.46
4.22 6905.59
4.24 7376.91
4.26 8001.31
4.28 8740.94
4.3 8394.73
4.32 9043.51
4.34 8738.59
4.36 7873.89
4.38 7216.96
4.4 6785.03
4.42 7011.68
4.44 7813.44
4.46 8834.61
4.48 10285.5
4.5 11870.7
4.52 14069.9
4.54 16188.5
4.56 17325.5
4.58 17063.3
4.6 14978.6
4.62 13068.4
4.64 11178.1
4.66 9693.26
4.68 8791.73
4.7 8522.29
4.72 9345.15
4.74 11600
4.76 14719.8
4.78 18169.5
4.8 19726.5
4.82 19461.8
4.84 16972.7
4.86 13487
4.88 10393.9
4.9 7997.47
4.92 6809.95
4.94 6751.97
4.96 7508.95
4.98 8912.17
5 10276.1
5.02 11109.2
5.04 11056.9
5.06 10181.1
5.08 9307.53
5.1 8880.63
5.12 9372.47
5.14 10535.7
5.16 11774.5
5.18 12560.9
5.2 11993.1
5.22 10888.4
5.24 9529.15
5.26 8567.19
5.28 8301.43
5.3 8465.18
5.32 9512.59
5.34 11757.6
5.36 15111.2
5.38 18826.6
5.4 21031.6
5.42 20781.9
5.44 18368.2
5.46 15761.5
5.48 14430.8
5.5 13573.9
5.52 12957.8
5.54 11554.6
5.56 9904.98
5.58 8111.33
5.6 6866.76
5.62 6248.85
5.64 6172.29
5.66 6773.53
5.68 8248.13
5.7 11253.9
5.72 15791
5.74 20521.4
5.76 24189
5.78 25074.4
5.8 22916.7
5.82 18879.2
5.84 14504.8
5.86 10928.7
5.88 8877.7
5.9 8412.7
5.92 9015.5
5.94 10133.6
5.96 11123.2
5.98 11363.5
6 10790.1
6.02 10015.3
6.04 9428.51
6.06 9428.12
6.08 9523.33
6.1 9513.74
6.12 9049.62
6.14 8142.33
6.16 7186.63
6.18 6627.65
6.2 6489.77
6.22 6844.16
6.24 7334.05
6.26 7727.71
6.28 7791.78
6.3 7596.16
6.32 7479.57
6.34 7722.34
6.36 8371.41
6.38 9191.74
6.4 9785.93
6.42 9917.42
6.44 9698.26
6.46 9143.49
6.48 8418.27
6.5 7667.46
6.52 7076.08
6.54 6796.33
6.56 6826.89
6.58 7293.56
6.6 8038.3
6.62 9039.62
6.64 9921.64
6.66 10416.4
6.68 10237.3
6.7 9626.65
6.72 8971.33
6.74 8708.92
6.76 8845.92
6.78 9092.44
6.8 9234.08
6.82 9028.09
6.84 8621.39
6.86 8140.94
6.88 7577.25
6.9 7112.2
6.92 6613.86
6.94 6220.68
6.96 5949.48
6.98 6028.02
7 6518.99
7.02 7283.79
7.04 8113.63
7.06 8606.04
7.08 8562.16
7.1 8056.35
7.12 7486.47
7.14 7181.77
7.16 7303.16
7.18 7747.65
7.2 8334.73
7.22 8725.03
7.24 8718.15
7.26 8452.15
7.28 8308.3
7.3 8479.52
7.32 8943.57
7.34 9398.98
7.36 9684.29
7.38 9323.91
7.4 8556.23
7.42 7552.83
7.44 6596.3
7.46 5981.92
7.48 5609.3
7.5 5507.73
7.52 5531.89
7.54 5549.66
7.56 5629.79
7.58 5761.44
7.6 5873.34
7.62 5916.67
7.64 5810.65
7.66 5595.16
7.68 5426.71
7.7 5369.77
7.72 5520.35
7.74 5769.58
7.76 6124.77
7.78 6388.63
7.8 6573.94
7.82 6534.2
7.84 6433.79
7.86 6226.5
7.88 5902.8
7.9 5550.08
7.92 5308.45
7.94 5193.92
7.96 5399.15
7.98 6005.8
8 6874.72
8.02 8193.48
8.04 9576.37
8.06 10639.8
8.08 11090.6
8.1 10842.5
8.12 10061.4
8.14 9305.66
8.16 8550.98
8.18 8032.23
8.2 7754.3
8.22 7536.03
8.24 7321.68
8.26 7080.34
8.28 6784.26
8.3 6512.68
8.32 6388.1
8.34 6475.25
8.36 6815.26
8.38 7330.06
8.4 7872.85
8.42 8348.89
8.44 8564.17
8.46 8408.8
8.48 8039.2
8.5 7506.02
8.52 6862.21
8.54 6357.34
8.56 6058.89
8.58 6045.37
8.6 6321.62
8.62 6814.68
8.64 7222.18
8.66 7438.27
8.68 7420.21
8.7 7148.24
8.72 6847.93
8.74 6592.74
8.76 6418.42
8.78 6328.99
8.8 6241.15
8.82 6029.09
8.84 5737.49
8.86 5393.31
8.88 5085.05
8.9 4910.96
8.92 4929.1
8.94 5111.93
8.96 5351.34
8.98 5634.59
9 5755.65
9.02 5764.81
9.04 5622.12
9.06 5443.73
9.08 5277.04
9.1 5094.05
9.12 4977.71
9.14 4934.63
9.16 4914.62
9.18 4930.35
9.2 5007.93
9.22 5159.02
9.24 5306.87
9.26 5416.48
9.28 5421.81
9.3 5294.25
9.32 5109.93
9.34 4868.86
9.36 4713.37
9.38 4673.26
9.4 4725.69
9.42 4889.54
9.44 5130.05
9.46 5395.41
9.48 5655.81
9.5 5943.92
9.52 6217.32
9.54 6403.93
9.56 6471.07
9.58 6387.17
9.6 6211.31
9.62 5988.79
9.64 5630.87
9.66 5375.59
9.68 5163.2
9.7 5103.98
9.72 5170.85
9.74 5340.64
9.76 5486.45
9.78 5578.73
9.8 5628.06
9.82 5592.35
9.84 5509.17
9.86 5431.41
9.88 5299.87
9.9 5185.08
9.92 5116.49
9.94 5083.12
9.96 5065.11
9.98 5075.15
10 5103.34
10.02 5189.64
10.04 5256.74
10.06 5336.12
10.08 5403.47
10.1 5427.49
10.12 5450.51
10.14 5429.02
10.16 5385.48
10.18 5323.06
10.2 5255.34
10.22 5220.95
10.24 5228.35
10.26 5334.23
10.28 5461.54
10.3 5591.34
10.32 5707.76
10.34 5761.2
10.36 5726.19
10.38 5636.53
10.4 5442.58
10.42 5194.9
10.44 4911.46
10.46 4661.17
10.48 4521.42
10.5 4348.83
10.52 4234.9
10.54 4174.17
10.56 4162.05
10.58 4169.83
10.6 4187.72
10.62 4192.9
10.64 4180.78
10.66 4150.04
10.68 4108.52
10.7 4105.9
10.72 4122.36
10.74 4214.92
10.76 4324.18
10.78 4441.22
10.8 4560.97
10.82 4697.82
10.84 4822.22
10.86 4955.08
10.88 5011.93
10.9 5012.64
10.92 5012.33
10.94 5013.1
10.96 5012.96
10.98 5063.61
11 5096.65
11.02 5167.84
11.04 5224.77
11.06 5269.3
11.08 5251.18
11.1 5212.45
11.12 5110.49
11.14 4976.93
11.16 4817.62
11.18 4637.2
11.2 4500.11
11.22 4427.87
11.24 4411
11.26 4441.2
11.28 4482.19
11.3 4525.18
11.32 4558.75
11.34 4604.38
11.36 4635.39
11.38 4640.9
11.4 4641.25
11.42 4680.57
11.44 4771.61
11.46 4913.46
11.48 5066.89
11.5 5171.91
11.52 5242.4
11.54 5243.75
11.56 5213.23
11.58 5161.66
11.6 5052.79
11.62 4935.82
11.64 4821.99
11.66 4731.73
11.68 4686.12
11.7 4658.34
11.72 4655.09
11.74 4658.17
11.76 4671.12
11.78 4690.51
11.8 4689.91
11.82 4672.58
11.84 4615.52
11.86 4539.66
11.88 4445.41
11.9 4344.34
11.92 4240.83
11.94 4123.77
11.96 4002.75
11.98 3892.84
12 3780.8
12.02 3672.05
12.04 3607.94
12.06 3580.72
12.08 3569.3
12.1 3602.85
12.12 3661.41
12.14 3690.11
12.16 3732.54
12.18 3766.86
12.2 3781.64
12.22 3804.37
12.24 3817.32
12.26 3795.21
12.28 3775.75
12.3 3751.24
12.32 3755.41
12.34 3781.11
12.36 3837.39
12.38 3879.03
12.4 3920.43
12.42 3952.48
12.44 3968.93
12.46 3986.25
12.48 4008.45
12.5 4034.92
12.52 4038.42
12.54 4032.03
12.56 4004.8
12.58 3984.64
12.6 3978.34
12.62 3978.97
12.64 3996.29
12.66 4008.07
12.68 4022.88
12.7 4019.49
12.72 4031.52
12.74 4042.65
12.76 4063.66
12.78 4082.99
12.8 4080.48
12.82 4065.02
12.84 4055.15
12.86 4028.37
12.88 4012.94
12.9 4013.15
12.92 4027.92
12.94 4065.21
12.96 4099.32
12.98 4147.45
13 4180.66
13.02 4191.58
13.04 4187.46
13.06 4176.71
13.08 4151.31
13.1 4115.38
13.12 4062.55
13.14 4008.61
13.16 3952.4
13.18 3887.3
13.2 3836.54
13.22 3802.82
13.24 3783.73
13.26 3787.19
13.28 3800.57
13.3 3817.59
13.32 3811.25
13.34 3811.73
13.36 3795.97
13.38 3802.21
13.4 3805.75
13.42 3816.29
13.44 3835
13.46 3855.37
13.48 3878.63
13.5 3900.49
13.52 3928.99
13.54 3940.95
13.56 3953.35
13.58 3955.07
13.6 3947.89
13.62 3913.87
13.64 3893.03
13.66 3871.51
13.68 3844.48
13.7 3837.03
13.72 3828.41
13.74 3827.83
13.76 3817.11
13.78 3806.17
13.8 3775.35
13.82 3768.48
13.84 3770.28
13.86 3783.35
13.88 3801.01
13.9 3800.23
13.92 3793.28
13.94 3770
13.96 3752.37
13.98 3719.92
14 3702.87
14.02 3708.54
14.04 3717.17
14.06 3735.33
14.08 3754.43
14.1 3757.74
14.12 3746.91
14.14 3738.96
14.16 3732.38
14.18 3729.79
14.2 3736.27
14.22 3741.99
14.24 3726.9
14.26 3713.86
14.28 3683.14
14.3 3651.16
14.32 3627.6
14.34 3601.5
14.36 3577.32
14.38 3560.95
14.4 3547.52
14.42 3518.85
14.44 3490.98
14.46 3468.66
14.48 3444.66
14.5 3430.76
14.52 3424.41
14.54 3416.05
14.56 3410.57
14.58 3410.81
14.6 3413.19
14.62 3423.92
14.64 3431.85
14.66 3436.22
14.68 3421.38
14.7 3415.59
14.72 3406.07
14.74 3401.79
14.76 3409.15
14.78 3432.54
14.8 3443.89
14.82 3449.3
14.84 3450.76
14.86 3435.3
14.88 3419.2
14.9 3410.53
14.92 3401.25
14.94 3401.11
14.96 3412.09
14.98 3430.37
15 3443.23
15.02 3449.23
15.04 3440.96
15.06 3416.42
15.08 3393.04
15.1 3386.81
15.12 3378.56
15.14 3400.96
15.16 3422.25
15.18 3426.74
15.2 3428.04
15.22 3415.33
15.24 3382.16
15.26 3360.51
15.28 3341.67
15.3 3345.14
15.32 3350.82
15.34 3359.39
15.36 3353.02
15.38 3327.14
15.4 3295.99
15.42 3275.6
15.44 3258.04
15.46 3257.97
15.48 3263.96
15.5 3269.96
15.52 3276.94
15.54 3279.32
15.56 3277.28
15.58 3274.37
15.6 3281.27
15.62 3288.6
15.64 3295
15.66 3301.07
15.68 3301.06
15.7 3292.54
15.72 3282.36
15.74 3272.17
15.76 3259.46
15.78 3261.63
15.8 3265.49
15.82 3259.58
15.84 3217.31
15.86 3218.55
15.88 3217
15.9 3208.7
15.92 3213.65
15.94 3220.24
15.96 3239.61
15.98 3256.81
16 3283.81
16.02 3291.08
16.04 3292.54
16.06 3291.89
16.08 3288.35
16.1 3291.54
16.12 3304.07
16.14 3313.12
16.16 3325.45
16.18 3330.75
16.2 3335.54
16.22 3324.12
16.24 3318.66
16.26 3307.16
16.28 3288.48
16.3 3275.39
16.32 3263.96
16.34 3243.15
16.36 3230.45
16.38 3215.81
16.4 3210.59
16.42 3207.3
16.44 3211.18
16.46 3214.92
16.48 3215.41
16.5 3204.05
16.52 3193.09
16.54 3171.31
16.56 3166.67
16.58 3159.29
16.6 3155.88
16.62 3161.79
16.64 3178.11
16.66 3182.71
16.68 3180.19
16.7 3173.38
16.72 3165.35
16.74 3146.34
16.76 3138.47
16.78 3141.52
16.8 3140.86
16.82 3148.32
16.84 3162.83
16.86 3165.23
16.88 3160.04
16.9 3157.39
16.92 3157.52
16.94 3149.63
16.96 3141.95
16.98 3139.72
17 3127.14
17.02 3125.06
17.04 3116.87
17.06 3105.49
17.08 3094.22
17.1 3081.81
17.12 3058.66
17.14 3042.74
17.16 3025.9
17.18 3003.86
17.2 2988.6
17.22 2975.47
17.24 2976.47
17.26 2962.3
17.28 2951.79
17.3 2939.24
17.32 2928.17
17.34 2912.81
17.36 2908.16
17.38 2909.25
17.4 2903.12
17.42 2900.13
17.44 2903.45
17.46 2901.79
17.48 2906.4
17.5 2900.72
17.52 2895.51
17.54 2892.54
17.56 2891.71
17.58 2884.65
17.6 2882.63
17.62 2883.51
17.64 2886.9
17.66 2892.76
17.68 2902.85
17.7 2909.23
17.72 2907.44
17.74 2907.96
17.76 2905.78
17.78 2908.25
17.8 2905.28
17.82 2901.79
17.84 2907.15
17.86 2905.33
17.88 2910.7
17.9 2911.96
17.92 2919.75
17.94 2919.06
17.96 2918.15
17.98 2918.78
18 2915.97
18.02 2918.78
18.04 2925.05
18.06 2926.45
18.08 2927
18.1 2923.68
18.12 2921.22
18.14 2911.47
18.16 2910.47
18.18 2905.03
18.2 2898.92
18.22 2893.59
18.24 2891.61
18.26 2894.05
18.28 2882.79
18.3 2877.15
18.32 2877.28
18.34 2873.32
18.36 2874.73
18.38 2877.2
18.4 2885.18
18.42 2887.89
18.44 2884.78
18.46 2885.6
18.48 2879.38
18.5 2876.71
18.52 2875.22
18.54 2872.68
18.56 2870.54
18.58 2875.31
18.6 2878.99
18.62 2884.27
18.64 2887.3
18.66 2889.61
18.68 2884.68
18.7 2875.8
18.72 2863.61
18.74 2854.33
18.76 2840.58
18.78 2829.49
18.8 2829.61
18.82 2823.61
18.84 2818.82
18.86 2817.72
18.88 2818.21
18.9 2813.11
18.92 2809.86
18.94 2808.27
18.96 2803.54
18.98 2793.27
19 2784.64
19.02 2777.79
19.04 2772.83
19.06 2770.59
19.08 2769.55
19.1 2770.82
19.12 2770.37
19.14 2768.83
19.16 2765.04
19.18 2760.39
19.2 2759.55
19.22 2760.8
19.24 2753.87
19.26 2750.72
19.28 2743.15
19.3 2737.79
19.32 2733.68
19.34 2729.28
19.36 2733.9
19.38 2738.23
19.4 2734.1
19.42 2731.86
19.44 2731.83
19.46 2732.69
19.48 2735.52
19.5 2734.8
19.52 2735.9
19.54 2733.83
19.56 2723.48
19.58 2721.84
19.6 2716.16
19.62 2715.07
19.64 2713.96
19.66 2718.26
19.68 2713.01
19.7 2711.72
19.72 2710.57
19.74 2705.59
19.76 2694.86
19.78 2694.4
19.8 2681.33
19.82 2674.62
19.84 2661.09
19.86 2655.25
19.88 2645.73
19.9 2634.34
19.92 2630.14
19.94 2628.09
19.96 2615.51
19.98 2614.15
20 2605.98
20.02 2597.18
20.04 2588.88
20.06 2580.62
20.08 2576.47
20.1 2572
20.12 2564.52
20.14 2559.44
20.16 2559.11
20.18 2556.28
20.2 2563.66
20.22 2562.48
20.24 2563.19
20.26 2561.82
20.28 2565.76
20.3 2566.15
20.32 2566.24
20.34 2566.52
20.36 2565.26
20.38 2567.7
20.4 2566.72
20.42 2564.99
20.44 2565.13
20.46 2559.78
20.48 2561.4
20.5 2563.4
20.52 2566.47
20.54 2569.75
20.56 2573.16
20.58 2570.81
20.6 2571.22
20.62 2568.16
20.64 2567.24
20.66 2562.37
20.68 2560.66
20.7 2557.2
20.72 2556.67
20.74 2555.29
20.76 2555.63
20.78 2553.21
20.8 2552.25
20.82 2552.18
20.84 2547.69
20.86 2548.53
20.88 2543.34
20.9 2542.06
20.92 2538.68
20.94 2539.84
20.96 2540.18
20.98 2540.48
21 2538.93
21.02 2542.11
21.04 2544.26
21.06 2543.85
21.08 2540.79
21.1 2542.99
21.12 2542.35
21.14 2536.61
21.16 2531.33
21.18 2531.26
21.2 2530.48
21.22 2528.63
21.24 2532.56
21.26 2529.97
21.28 2527.8
21.3 2522.43
21.32 2518.96
21.34 2518.49
21.36 2512.17
21.38 2510.18
21.4 2504.54
21.42 2499.98
21.44 2495.45
21.46 2490.94
21.48 2488.04
21.5 2485.69
21.52 2485
21.54 2481.02
21.56 2479.11
21.58 2474.35
21.6 2468.22
21.62 2459.3
21.64 2454.72
21.66 2454.05
21.68 2451.83
21.7 2450.03
21.72 2446.75
21.74 2444.04
21.76 2439.24
21.78 2437.6
21.8 2438.35
21.82 2440.49
21.84 2440.3
21.86 2438.51
21.88 2437.75
21.9 2437.71
21.92 2434.26
21.94 2433.62
21.96 2428.95
21.98 2424.8
22 2420.74
22.02 2418.57
22.04 2417.21
22.06 2414.54
22.08 2410.84
22.1 2407.01
22.12 2405.44
22.14 2403.47
22.16 2398.47
22.18 2400.04
22.2 2399.22
22.22 2397.44
22.24 2399.26
22.26 2395.15
22.28 2393.56
22.3 2387.93
22.32 2384.95
22.34 2379.71
22.36 2374.9
22.38 2375.67
22.4 2373.32
22.42 2372.07
22.44 2374.78
22.46 2373.9
22.48 2372.03
22.5 2368.94
22.52 2366.59
22.54 2363.55
22.56 2361.32
22.58 2359.76
22.6 2355.54
22.62 2356.93
22.64 2353.21
22.66 2345.9
22.68 2346.14
22.7 2343.7
22.72 2341.84
22.74 2336.34
22.76 2335.68
22.78 2337.92
22.8 2335.85
22.82 2331.28
22.84 2331.13
22.86 2327.9
22.88 2327.36
22.9 2322.08
22.92 2318.69
22.94 2316.73
22.96 2311.29
22.98 2308.46
23 2309.18
23.02 2306.48
23.04 2303.95
23.06 2298.93
23.08 2298.07
23.1 2296.89
23.12 2295.94
23.14 2294.27
23.16 2291.03
23.18 2291.27
23.2 2292.52
23.22 2294.76
23.24 2292.5
23.26 2295.53
23.28 2292.46
23.3 2290.33
23.32 2290.5
23.34 2289.99
23.36 2289.48
23.38 2288.55
23.4 2287.77
23.42 2285.28
23.44 2285.11
23.46 2282.15
23.48 2284.24
23.5 2284.41
23.52 2281.83
23.54 2277.41
23.56 2276.8
23.58 2246.07
23.6 2262.18
23.62 2262.57
23.64 2262.87
23.66 2262.42
23.68 2261.25
23.7 2261.89
23.72 2259.53
23.74 2260.82
23.76 2258.32
23.78 2259.04
23.8 2259.23
23.82 2257.82
23.84 2254.34
23.86 2254.97
23.88 2250.97
23.9 2249.03
23.92 2248.7
23.94 2245.66
23.96 2242.62
23.98 2241.52
24 2238.45
24.02 2238.35
24.04 2234.52
24.06 2236.01
24.08 2236.08
24.1 2232.6
24.12 2232.87
24.14 2232.35
24.16 2232.17
24.18 2229.19
24.2 2230.88
24.22 2224.07
24.24 2224.69
24.26 2222
24.28 2221.14
24.3 2219.55
24.32 2214.17
24.34 2210.14
24.36 2209.42
24.38 2209.15
24.4 2206.8
24.42 2205.27
24.44 2200.82
24.46 2197.43
24.48 2195.9
24.5 2191.45
24.52 2191.34
24.54 2188.95
24.56 2184.87
24.58 2186.02
24.6 2184.77
24.62 2180.69
24.64 2179.28
24.66 2178.38
24.68 2172.87
24.7 2173.13
24.72 2166.66
24.74 2166.02
24.76 2165.2
24.78 2163.12
24.8 2160.01
24.82 2162.52
24.84 2155.78
24.86 2156.31
24.88 2155.72
24.9 2152.41
24.92 2150.47
24.94 2142.47
24.96 2142.47
24.98 2141.17
25 2143.71
25.02 2140.58
25.04 2137.4
25.06 2138.55
25.08 2135.17
25.1 2135.62
25.12 2131.24
25.14 2129.66
25.16 2123.66
25.18 2122.07
25.2 2117.24
25.22 2118.94
25.24 2115.74
25.26 2115.99
25.28 2117.46
25.3 2112.11
25.32 2111.73
25.34 2109.62
25.36 2107.26
25.38 2105.49
25.4 2104.14
25.42 2101.28
25.44 2100.27
25.46 2100.87
25.48 2097.76
25.5 2097.89
25.52 2098.21
25.54 2094.16
25.56 2091.59
25.58 2085.49
25.6 2087.15
25.62 2086.79
25.64 2085.31
25.66 2082.49
25.68 2082.13
25.7 2078.96
25.72 2079.41
25.74 2075.83
25.76 2072.45
25.78 2073.97
25.8 2070.74
25.82 2070.21
25.84 2066.63
25.86 2066.04
25.88 2066.34
25.9 2064.97
25.92 2064.7
25.94 2063.56
25.96 2059.96
25.98 2062.23
26 2061.94
26.02 2063.85
26.04 2056.07
26.06 2056.45
26.08 2053.49
26.1 2054.58
26.12 2053.56
26.14 2048.99
26.16 2047.32
26.18 2048.6
26.2 2045.6
26.22 2042.97
26.24 2045.2
26.26 2043.74
26.28 2044.58
26.3 2042.98
26.32 2041.48
26.34 2039.15
26.36 2040.51
26.38 2039.07
26.4 2036.08
26.42 2034.28
26.44 2033.12
26.46 2033.09
26.48 2032.33
26.5 2030.42
26.52 2029.89
26.54 2025.12
26.56 2024.73
26.58 2020.11
26.6 2020.3
26.62 2016.37
26.64 2014.99
26.66 2016.14
26.68 2013.58
26.7 2010.18
26.72 2011
26.74 2006.71
26.76 2008.46
26.78 2009.73
26.8 2008.13
26.82 2004.8
26.84 2003.66
26.86 2002.12
26.88 2000.33
26.9 1999.35
26.92 1994.68
26.94 1995.91
26.96 1993.76
26.98 1993.44
27 1991.44
27.02 1988.9
27.04 1984.67
27.06 1982.75
27.08 1981.36
27.1 1978.37
27.12 1978.05
27.14 1973.08
27.16 1973.16
27.18 1971.29
27.2 1971.7
27.22 1967.95
27.24 1965.7
27.26 1963.51
27.28 1960.9
27.3 1962.99
27.32 1961.4
27.34 1960.71
27.36 1960.21
27.38 1957.25
27.4 1955.07
27.42 1953.74
27.44 1951.97
27.46 1950.84
27.48 1949.07
27.5 1946.46
27.52 1942.91
27.54 1940.78
27.56 1940.53
27.58 1939.1
27.6 1938.37
27.62 1935.24
27.64 1934.23
27.66 1932.62
27.68 1930.31
27.7 1929.66
27.72 1928.13
27.74 1924.59
27.76 1924.37
27.78 1922.09
27.8 1920.12
27.82 1920.44
27.84 1917.63
27.86 1919.06
27.88 1916.75
27.9 1913.31
27.92 1914.23
27.94 1913.58
27.96 1911.38
27.98 1911.1
28 1910.53
28.02 1910.7
28.04 1910.47
28.06 1904.87
28.08 1905.38
28.1 1899.45
28.12 1898.16
28.14 1889.53
28.16 1884.03
28.18 1887.38
28.2 1887.06
28.22 1887.73
28.24 1889.25
28.26 1885.52
28.28 1883.29
28.3 1882.98
28.32 1879.67
28.34 1880.12
28.36 1878.24
28.38 1876.9
28.4 1875.1
28.42 1876.03
28.44 1875.91
28.46 1874.78
28.48 1871.5
28.5 1873.41
28.52 1872.17
28.54 1867.88
28.56 1865.46
28.58 1866.73
28.6 1865.76
28.62 1866.16
28.64 1863.3
28.66 1860.93
28.68 1858.62
28.7 1858.5
28.72 1859.09
28.74 1856.63
28.76 1855.08
28.78 1855.63
28.8 1854.74
28.82 1855.59
28.84 1851.09
28.86 1847.85
28.88 1848.66
28.9 1847.56
28.92 1847.58
28.94 1846.05
28.96 1840.6
28.98 1841.98
29 1843.95
29.02 1838.89
29.04 1839.23
29.06 1836.12
29.08 1833.58
29.1 1833.08
29.12 1834.74
29.14 1836.44
29.16 1834.21
29.18 1834.79
29.2 1830.2
29.22 1832.1
29.24 1827.3
29.26 1824.94
29.28 1820.77
29.3 1820.56
29.32 1819.6
29.34 1819.16
29.36 1819.71
29.38 1819.53
29.4 1818.53
29.42 1816.97
29.44 1817.83
29.46 1813.38
29.48 1813.91
29.5 1813.7
29.52 1813.55
29.54 1809.33
29.56 1808.31
29.58 1806.06
29.6 1806.74
29.62 1808.74
29.64 1807.03
29.66 1808.04
29.68 1803.73
29.7 1800.76
29.72 1801.79
29.74 1800.34
29.76 1799.95
29.78 1797.12
29.8 1794.7
29.82 1792.92
29.84 1792.52
29.86 1791.43
29.88 1790.77
29.9 1792.15
29.92 1786.78
29.94 1785.99
29.96 1785.56
29.98 1784.04
30 1784.92
30.02 1777.75
30.04 1776.97
30.06 1775.97
30.08 1772.86
30.1 1772.94
30.12 1772.72
30.14 1773.28
30.16 1772.25
30.18 1776.88
30.2 1772.89
30.22 1769.58
30.24 1767.92
30.26 1766.37
30.28 1764.85
30.3 1761.43
30.32 1760.22
30.34 1761.27
30.36 1759.76
30.38 1758.76
30.4 1756.78
30.42 1754.92
30.44 1753
30.46 1753.2
30.48 1750.45
30.5 1750.99
30.52 1750.38
30.54 1752.14
30.56 1749.95
30.58 1747.88
30.6 1746.98
30.62 1745.4
30.64 1744.3
30.66 1743.36
30.68 1741.2
30.7 1738.54
30.72 1751.02
30.74 1735.02
30.76 1737.21
30.78 1735.97
30.8 1735.5
30.82 1730.42
30.84 1731.8
30.86 1734.8
30.88 1731.78
30.9 1728.12
30.92 1726.51
30.94 1727.32
30.96 1726.33
30.98 1717.27
31 1720.78
31.02 1721.96
31.04 1722.93
31.06 1718.63
31.08 1718.47
31.1 1717.3
31.12 1715.42
31.14 1715.66
31.16 1714.17
31.18 1715.83
31.2 1715.29
31.22 1712.6
31.24 1707.2
31.26 1707.27
31.28 1707.8
31.3 1705.93
31.32 1704.56
31.34 1705.97
31.36 1700.91
31.38 1701.6
31.4 1697.63
31.42 1698.64
31.44 1701.24
31.46 1697.7
31.48 1699.21
31.5 1696.65
31.52 1696.12
31.54 1695.39
31.56 1696.62
31.58 1691.54
31.6 1692.28
31.62 1687.14
31.64 1689.44
31.66 1688.93
31.68 1687.75
31.7 1685.69
31.72 1684.02
31.74 1682.26
31.76 1680.55
31.78 1682.15
31.8 1682.89
31.82 1675.49
31.84 1677.68
31.86 1678.82
31.88 1677.04
31.9 1676.44
31.92 1674.93
31.94 1675.51
31.96 1673.84
31.98 1671.31
32 1668.42
32.02 1669.87
32.04 1669.01
32.06 1669.11
32.08 1668.69
32.1 1667.98
32.12 1662.67
32.14 1662.69
32.16 1662.02
32.18 1664.52
32.2 1663.32
32.22 1662.05
32.24 1659.11
32.26 1660.45
32.28 1658.05
32.3 1655.63
32.32 1657.36
32.34 1658.21
32.36 1659.34
32.38 1655.92
32.4 1652.31
32.42 1651.61
32.44 1649.51
32.46 1650.29
32.48 1603.51
32.5 1637.18
32.52 1639.03
32.54 1642
32.56 1641.35
32.58 1641.91
32.6 1637.73
32.62 1635.64
32.64 1640.1
32.66 1639.85
32.68 1640.28
32.7 1640.01
32.72 1638.53
32.74 1636.35
32.76 1638.84
32.78 1634.43
32.8 1633.26
32.82 1634.72
32.84 1628.4
32.86 1629.87
32.88 1626.98
32.9 1629.07
32.92 1627.2
32.94 1624.73
32.96 1623.96
32.98 1622.99
33 1628
33.02 1622.25
33.04 1623.39
33.06 1621.28
33.08 1624.01
33.1 1616.9
33.12 1618.83
33.14 1620.99
33.16 1618.81
33.18 1621.3
33.2 1616.36
33.22 1614.28
33.24 1613.13
33.26 1612.99
33.28 1611.02
33.3 1614.3
33.32 1612.45
33.34 1610.61
33.36 1607.74
33.38 1611.24
33.4 1610.37
33.42 1607.53
33.44 1607.27
33.46 1607.15
33.48 1606.19
33.5 1607.7
33.52 1604.14
33.54 1602.64
33.56 1603.94
33.58 1600.8
33.6 1600.97
33.62 1601.49
33.64 1600.5
33.66 1600.44
33.68 1604.25
33.7 1604.34
33.72 1603.57
33.74 1606.81
33.76 1604.43
33.78 1599.76
33.8 1594.53
33.82 1593.92
33.84 1603.83
33.86 1596.35
33.88 1594.71
33.9 1598.09
33.92 1593.63
33.94 1593.26
33.96 1596.56
33.98 1595.21
34 1590.57
34.02 1592.97
34.04 1590.63
34.06 1590.7
34.08 1588.8
34.1 1585.38
34.12 1585.95
34.14 1587.69
34.16 1587.06
34.18 1581.68
34.2 1584.02
34.22 1582.14
34.24 1583.21
34.26 1581.91
34.28 1583.07
34.3 1580
34.32 1578.15
34.34 1575.57
34.36 1580.47
34.38 1576.99
34.4 1578.35
34.42 1577.73
34.44 1575.18
34.46 1575.73
34.48 1574.75
34.5 1573.44
34.52 1573.05
34.54 1570.96
34.56 1565.04
34.58 1562.89
34.6 1566.08
34.62 1568.1
34.64 1567.88
34.66 1566.12
34.68 1561.79
34.7 1562.3
34.72 1564.8
34.74 1562.68
34.76 1560.85
34.78 1559.75
34.8 1560.09
34.82 1561.12
34.84 1555.89
34.86 1556.46
34.88 1553.53
34.9 1556.29
34.92 1556.06
34.94 1548.26
34.96 1544.38
34.98 1549.71
35 1552.3
35.02 1549.39
35.04 1548.26
35.06 1547.44
35.08 1544.18
35.1 1543.94
35.12 1545.08
35.14 1540.29
35.16 1540.49
35.18 1537.13
35.2 1536.16
35.22 1535.81
35.24 1535.73
35.26 1536.56
35.28 1532.82
35.3 1534.08
35.32 1526.23
35.34 1522.44
35.36 1523.55
35.38 1527.33
35.4 1521.17
35.42 1518.85
35.44 1516.15
35.46 1521.29
35.48 1519.05
35.5 1512.13
35.52 1509.19
35.54 1509.39
35.56 1510.96
35.58 1513.64
35.6 1508.83
35.62 1511.94
35.64 1508.85
35.66 1505.98
35.68 1504.57
35.7 1502.77
35.72 1500.71
35.74 1497.99
35.76 1496.26
35.78 1500.21
35.8 1499.58
35.82 1495.45
35.84 1496.33
35.86 1493.71
35.88 1493.96
35.9 1491.54
35.92 1490.33
35.94 1489.2
35.96 1488.24
35.98 1486.33
36 1483.56
36.02 1483.04
36.04 1480.84
36.06 1481.88
36.08 1481.5
36.1 1478.63
36.12 1476.83
36.14 1476.32
36.16 1476.36
36.18 1476.54
36.2 1473.22
36.22 1472.58
36.24 1471.58
36.26 1468.32
36.28 1465.77
36.3 1470.07
36.32 1465.63
36.34 1467.04
36.36 1463.53
36.38 1466.17
36.4 1464.89
36.42 1459.06
36.44 1460.68
36.46 1460.76
36.48 1460.63
36.5 1457.5
36.52 1448.46
36.54 1451.04
36.56 1448.67
36.58 1451.38
36.6 1451.55
36.62 1449.75
36.64 1449.46
36.66 1446.5
36.68 1445.03
36.7 1443.9
36.72 1443.02
36.74 1442.26
36.76 1440.29
36.78 1443.08
36.8 1443.55
36.82 1440.49
36.84 1441.48
36.86 1438.54
36.88 1432.13
36.9 1436.73
36.92 1432
36.94 1437.3
36.96 1425.82
36.98 1425.09
37 1426.13
37.02 1427.3
37.04 1429.12
37.06 1422.62
37.08 1420.01
37.1 1424.18
37.12 1419.27
37.14 1423.76
37.16 1419.34
37.18 1415.48
37.2 1417.13
37.22 1411.92
37.24 1418.32
37.26 1416.56
37.28 1414.63
37.3 1412.69
37.32 1416.78
37.34 1410.47
37.36 1407.6
37.38 1408.54
37.4 1405.71
37.42 1402.58
37.44 1403.72
37.46 1403.91
37.48 1404.15
37.5 1404.99
37.52 1402.85
37.54 1406.91
37.56 1397.07
37.58 1396.26
37.6 1389.24
37.62 1393.1
37.64 1392.12
37.66 1395.29
37.68 1394.14
37.7 1387.67
37.72 1392.28
37.74 1391.6
37.76 1389.59
37.78 1388.83
37.8 1392.3
37.82 1389.67
37.84 1385.09
37.86 1383.01
37.88 1386.86
37.9 1386.02
37.92 1384.66
37.94 1380.04
37.96 1382.66
37.98 1379.87
38 1378.9
38.02 1376.49
38.04 1374.15
38.06 1377.07
38.08 1377.47
38.1 1375.23
38.12 1371.22
38.14 1369.53
38.16 1373.87
38.18 1368.81
38.2 1367
38.22 1362.75
38.24 1364.46
38.26 1368.85
38.28 1368.87
38.3 1370.5
38.32 1360.53
38.34 1361.89
38.36 1358.28
38.38 1361.69
38.4 1353.77
38.42 1358.26
38.44 1355.43
38.46 1356.44
38.48 1359.34
38.5 1350.54
38.52 1352.62
38.54 1349.48
38.56 1354.41
38.58 1349.14
38.6 1348.23
38.62 1349.75
38.64 1348.5
38.66 1341.28
38.68 1341.74
38.7 1344.4
38.72 1340.48
38.74 1335.78
38.76 1342.65
38.78 1342.54
38.8 1340.83
38.82 1341.56
38.84 1335.42
38.86 1333.42
38.88 1335.28
38.9 1325.82
38.92 1333.79
38.94 1333.74
38.96 1336.94
38.98 1328.93
39 1324.36
39.02 1326.72
39.04 1326.95
39.06 1326.35
39.08 1331.03
39.1 1331
39.12 1323.77
39.14 1322.74
39.16 1323.3
39.18 1326.33
39.2 1330.2
39.22 1323.07
39.24 1312.78
39.26 1311.92
39.28 1320.36
39.3 1322.77
39.32 1323.77
39.34 1313.14
39.36 1318.65
39.38 1310.5
39.4 1312.04
39.42 1312.41
39.44 1309.25
39.46 1303.48
39.48 1296.83
39.5 1306.49
39.52 1309.07
39.54 1306.23
39.56 1312.54
39.58 1310.26
39.6 1302.07
39.62 1301.65
39.64 1308.86
39.66 1305.93
39.68 1301.9
39.7 1307.99
39.72 1308.28
39.74 1301.01
39.76 1298.42
39.78 1298
39.8 1299.3
39.82 1293.19
39.84 1298.45
39.86 1295.24
39.88 1297.29
39.9 1297.67
39.92 1300.59
39.94 1293.03
39.96 1291.78
39.98 1291.49
40 1288.99
40.02 1281.16
40.04 1291.82
40.06 1294.31
40.08 1290.68
40.1 1293.73
40.12 1283.31
40.14 1288.89
40.16 1284.3
40.18 1279.49
40.2 1280.36
40.22 1283.26
40.24 1287.4
40.26 1277.79
40.28 1286.54
40.3 1278.48
40.32 1281.15
40.34 1274.52
40.36 1284.26
40.38 1272.8
40.4 1283.93
40.42 1265.86
40.44 1266.13
40.46 1272.34
40.48 1262.05
40.5 1270.58
40.52 1272.07
40.54 1268.59
40.56 1273.18
40.58 1275.83
40.6 1270.56
40.62 1270.73
40.64 1262.21
40.66 1267.3
40.68 1269.36
40.7 1266.16
40.72 1260.28
40.74 1265.9
40.76 1258.03
40.78 1266.73
40.8 1258.13
40.82 1262.94
40.84 1264.46
40.86 1261.16
40.88 1254.88
40.9 1264.63
40.92 1264.95
40.94 1252.46
40.96 1263.5
40.98 1262.3
41 1261.81
41.02 1263.02
41.04 1265.86
41.06 1267.69
41.08 1256.44
41.1 1256.3
41.12 1246.2
41.14 1261.91
41.16 1255.92
41.18 1248.61
41.2 1243.66
41.22 1251.98
41.24 1244
41.26 1240.24
41.28 1240.62
41.3 1242.26
41.32 1240.38
41.34 1238.91
41.36 1238.99
41.38 1263.44
41.4 1241.43
41.42 1235.81
41.44 1247.15
41.46 1236.66
41.48 1238.61
41.5 1251.74
41.52 1235.27
41.54 1226.32
41.56 1225.96
41.58 1244.76
41.6 1261.96
41.62 1239.36
41.64 1225.32
41.66 1230.03
41.68 0
41.7 0
41.72 0
41.74 0
41.76 0
41.78 0
41.8 0
41.82 0
41.84 0
41.86 0
41.88 0
41.9 0
41.92 0
41.94 0
41.96 0
41.98 0
42 0
42.02 0
42.04 0
42.06 0
42.08 0
42.1 0
42.12 0
42.14 0
42.16 0
42.18 0
42.2 0
42.22 0
42.24 0
42.26 0
42.28 0
42.3 0
42.32 0
42.34 0
42.36 0
42.38 0
42.4 0
42.42 0
42.44 0
42.46 0
42.48 0
42.5 0
42.52 0
42.54 0
42.56 0
42.58 0
42.6 0
42.62 0
42.64 0
42.66 0
42.68 0
42.7 0
42.72 0
42.74 0
42.76 0
42.78 0
42.8 0
42.82 0
42.84 0
42.86 0
42.88 0
42.9 0
42.92 0
42.94 0
42.96 0
42.98 0
43 0
43.02 0
43.04 0
43.06 0
43.08 0
43.1 0
43.12 0
43.14 0
